{
  "version": "2.0",
  "description": "SDTM domain DAG — single source of truth for execution order and unlock logic",
  "domains": [
    {
      "domain": "TA",
      "full_name": "Trial Arms",
      "class": "TrialDesign",
      "layer": 0,
      "depends_on": [],
      "depends_on_raw": [],
      "has_supp": false,
      "sdtm_oak_support": false,
      "version_introduced": "v2.0",
      "mcp_tools": ["build_trial_design", "validate_domain"]
    },
    {
      "domain": "TE",
      "full_name": "Trial Elements",
      "class": "TrialDesign",
      "layer": 0,
      "depends_on": [],
      "depends_on_raw": [],
      "has_supp": false,
      "sdtm_oak_support": false,
      "version_introduced": "v2.0",
      "mcp_tools": ["build_trial_design", "validate_domain"]
    },
    {
      "domain": "TV",
      "full_name": "Trial Visits",
      "class": "TrialDesign",
      "layer": 0,
      "depends_on": [],
      "depends_on_raw": [],
      "has_supp": false,
      "sdtm_oak_support": false,
      "version_introduced": "v2.0",
      "mcp_tools": ["build_trial_design", "validate_domain"]
    },
    {
      "domain": "TI",
      "full_name": "Trial Inclusion/Exclusion Criteria",
      "class": "TrialDesign",
      "layer": 0,
      "depends_on": [],
      "depends_on_raw": [],
      "has_supp": false,
      "sdtm_oak_support": false,
      "version_introduced": "v2.0",
      "mcp_tools": ["build_trial_design", "validate_domain"]
    },
    {
      "domain": "TS",
      "full_name": "Trial Summary",
      "class": "TrialDesign",
      "layer": 0,
      "depends_on": [],
      "depends_on_raw": [],
      "has_supp": false,
      "sdtm_oak_support": false,
      "version_introduced": "v2.0",
      "mcp_tools": ["build_trial_design", "validate_domain"]
    },
    {
      "domain": "DM",
      "full_name": "Demographics",
      "class": "SpecialPurpose",
      "layer": 1,
      "depends_on": ["TA", "TE"],
      "depends_on_raw": ["dm_raw"],
      "has_supp": true,
      "supp_domain": "SUPPDM",
      "sdtm_oak_support": true,
      "key_source_vars": ["SUBJID", "SEX", "RACE", "ETHNIC", "COUNTRY", "AGE", "BRTHDTC"],
      "key_sdtm_vars": ["STUDYID", "DOMAIN", "USUBJID", "SUBJID", "RFSTDTC", "RFENDTC",
                        "SEX", "RACE", "ETHNIC", "COUNTRY", "AGE", "AGEU", "BRTHDTC", "ARMCD", "ARM"],
      "version_introduced": "v1.0",
      "mcp_tools": ["detect_mappings", "build_domain", "build_supp", "validate_domain"]
    },
    {
      "domain": "EX",
      "full_name": "Exposure",
      "class": "Interventions",
      "layer": 2,
      "depends_on": ["DM"],
      "depends_on_raw": ["ex_raw"],
      "has_supp": true,
      "supp_domain": "SUPPEX",
      "sdtm_oak_support": true,
      "version_introduced": "v2.0",
      "mcp_tools": ["detect_mappings", "build_domain", "build_supp", "validate_domain"]
    },
    {
      "domain": "DS",
      "full_name": "Disposition",
      "class": "Events",
      "layer": 2,
      "depends_on": ["DM"],
      "depends_on_raw": ["ds_raw"],
      "has_supp": true,
      "supp_domain": "SUPPDS",
      "sdtm_oak_support": true,
      "version_introduced": "v2.0",
      "mcp_tools": ["detect_mappings", "build_domain", "build_supp", "validate_domain"]
    },
    {
      "domain": "AE",
      "full_name": "Adverse Events",
      "class": "Events",
      "layer": 2,
      "depends_on": ["DM"],
      "depends_on_raw": ["ae_raw"],
      "has_supp": true,
      "supp_domain": "SUPPAE",
      "sdtm_oak_support": true,
      "version_introduced": "v2.0",
      "mcp_tools": ["detect_mappings", "build_domain", "build_supp", "validate_domain"]
    },
    {
      "domain": "CM",
      "full_name": "Concomitant/Prior Medications",
      "class": "Interventions",
      "layer": 2,
      "depends_on": ["DM"],
      "depends_on_raw": ["cm_raw"],
      "has_supp": true,
      "supp_domain": "SUPPCM",
      "sdtm_oak_support": true,
      "version_introduced": "v2.0",
      "mcp_tools": ["detect_mappings", "build_domain", "build_supp", "validate_domain"]
    },
    {
      "domain": "MH",
      "full_name": "Medical History",
      "class": "Events",
      "layer": 2,
      "depends_on": ["DM"],
      "depends_on_raw": ["mh_raw"],
      "has_supp": true,
      "supp_domain": "SUPPMH",
      "sdtm_oak_support": true,
      "version_introduced": "v2.0",
      "mcp_tools": ["detect_mappings", "build_domain", "build_supp", "validate_domain"]
    }
  ]
}
